# Temperature [K], Thermal Conductivity (xx, xy, xz, yx, yy, yz, zx, zy, zz) [W/mK]
# Iterative result.
# Isotope effects are included.
# 4ph is included non-iteratively.
    100.00     3.5072e+03     5.1764e-02    -1.2352e-01     1.5319e-01     3.5072e+03    -1.7758e-01     3.0797e-02    -9.0945e-02     3.5072e+03
    150.00     2.9087e+03     1.1677e-01    -9.3848e-02     1.9209e-01     2.9087e+03    -2.5329e-01     1.1317e-01    -1.3715e-01     2.9087e+03
    200.00     2.1791e+03     1.0415e-01    -6.3342e-02     1.5281e-01     2.1791e+03    -2.1357e-01     1.0611e-01    -1.1865e-01     2.1791e+03
    250.00     1.5945e+03     7.9225e-02    -4.1425e-02     1.0983e-01     1.5944e+03    -1.5980e-01     8.2713e-02    -9.0820e-02     1.5944e+03
    300.00     1.1887e+03     5.7910e-02    -2.7942e-02     7.8277e-02     1.1887e+03    -1.1671e-01     6.1321e-02    -6.7448e-02     1.1887e+03
    350.00     9.1358e+02     4.2427e-02    -1.9803e-02     5.6974e-02     9.1358e+02    -8.6134e-02     4.5333e-02    -5.0380e-02     9.1357e+02
    400.00     7.2334e+02     3.1597e-02    -1.4719e-02     4.2622e-02     7.2334e+02    -6.4921e-02     3.3980e-02    -3.8314e-02     7.2334e+02
    450.00     5.8788e+02     2.4067e-02    -1.1413e-02     3.2820e-02     5.8788e+02    -5.0199e-02     2.6009e-02    -2.9827e-02     5.8788e+02
    500.00     4.8804e+02     1.8639e-02    -9.1299e-03     2.5821e-02     4.8804e+02    -3.9543e-02     2.0229e-02    -2.3628e-02     4.8804e+02
    550.00     4.1260e+02     1.4718e-02    -7.5099e-03     2.0767e-02     4.1260e+02    -3.1809e-02     1.6035e-02    -1.9095e-02     4.1260e+02
    600.00     3.5398e+02     1.1764e-02    -6.3031e-03     1.6958e-02     3.5398e+02    -2.5937e-02     1.2865e-02    -1.5635e-02     3.5398e+02
    650.00     3.0763e+02     9.5496e-03    -5.3910e-03     1.4082e-02     3.0763e+02    -2.1504e-02     1.0482e-02    -1.3008e-02     3.0763e+02
    700.00     2.7023e+02     7.8357e-03    -4.6778e-03     1.1841e-02     2.7023e+02    -1.8042e-02     8.6329e-03    -1.0949e-02     2.7023e+02
    750.00     2.3958e+02     6.4886e-03    -4.1084e-03     1.0064e-02     2.3958e+02    -1.5295e-02     7.1766e-03    -9.3087e-03     2.3958e+02
    800.00     2.1411e+02     5.4155e-03    -3.6456e-03     8.6349e-03     2.1411e+02    -1.3085e-02     6.0143e-03    -7.9852e-03     2.1411e+02
    850.00     1.9266e+02     4.5414e-03    -3.2618e-03     7.4615e-03     1.9266e+02    -1.1266e-02     5.0656e-03    -6.8934e-03     1.9266e+02
    900.00     1.7447e+02     3.8386e-03    -2.9427e-03     6.5043e-03     1.7447e+02    -9.7884e-03     4.3016e-03    -6.0033e-03     1.7447e+02
    950.00     1.5888e+02     3.2599e-03    -2.6725e-03     5.7068e-03     1.5887e+02    -8.5584e-03     3.6716e-03    -5.2607e-03     1.5887e+02
   1000.00     1.4538e+02     2.7794e-03    -2.4414e-03     5.0365e-03     1.4538e+02    -7.5256e-03     3.1476e-03    -4.6358e-03     1.4538e+02
